[
  {
    "rt": 26063,
    "responses": "",
    "question_order": "",
    "trial_type": "instructions",
    "trial_index": 0,
    "time_elapsed": 26076,
    "internal_node_id": "0.0-0.0",
    "subjectId": "l8j3k5vhy2wbhvft71g2"
  },
  {
    "rt": 18150,
    "responses": {
      "internet": 5,
      "news": 3
    },
    "question_order": [
      0,
      1
    ],
    "trial_type": "survey-likert",
    "trial_index": 1,
    "time_elapsed": 44250,
    "internal_node_id": "0.0-1.0",
    "subjectId": "l8j3k5vhy2wbhvft71g2"
  },
  {
    "rt": 52908,
    "responses": {
      "appearance": 3,
      "readability": 6,
      "readability2": 3,
      "future": 4
    },
    "question_order": [
      0,
      1,
      2,
      3
    ],
    "trial_type": "survey-likert",
    "trial_index": 2,
    "time_elapsed": 97176,
    "internal_node_id": "0.0-2.0-0.0",
    "subjectId": "l8j3k5vhy2wbhvft71g2"
  },
  {
    "rt": 32009,
    "responses": {
      "appearance": 1,
      "readability": 3,
      "readability2": 0,
      "future": 0
    },
    "question_order": [
      0,
      1,
      2,
      3
    ],
    "trial_type": "survey-likert",
    "trial_index": 3,
    "time_elapsed": 129209,
    "internal_node_id": "0.0-2.0-1.0",
    "subjectId": "l8j3k5vhy2wbhvft71g2"
  },
  {
    "rt": 39666,
    "responses": {
      "appearance": 0,
      "readability": 2,
      "readability2": 0,
      "future": 0
    },
    "question_order": [
      0,
      1,
      2,
      3
    ],
    "trial_type": "survey-likert",
    "trial_index": 4,
    "time_elapsed": 168891,
    "internal_node_id": "0.0-2.0-2.0",
    "subjectId": "l8j3k5vhy2wbhvft71g2"
  },
  {
    "rt": 1626,
    "responses": "",
    "question_order": "",
    "trial_type": "html-button-response",
    "trial_index": 5,
    "time_elapsed": 170529,
    "internal_node_id": "0.0-3.0",
    "subjectId": "l8j3k5vhy2wbhvft71g2"
  },
  {
    "rt": 4655,
    "responses": "",
    "question_order": "",
    "trial_type": "instructions",
    "trial_index": 0,
    "time_elapsed": 4658,
    "internal_node_id": "0.0-0.0",
    "subjectId": "tycefhbu0d0olcamung6"
  },
  {
    "rt": 14116,
    "responses": {
      "internet": 6,
      "news": 5
    },
    "question_order": [
      0,
      1
    ],
    "trial_type": "survey-likert",
    "trial_index": 1,
    "time_elapsed": 18781,
    "internal_node_id": "0.0-1.0",
    "subjectId": "tycefhbu0d0olcamung6"
  },
  {
    "rt": 32195,
    "responses": {
      "appearance": 4,
      "readability": 3,
      "readability2": 5,
      "future": 3
    },
    "question_order": [
      0,
      1,
      2,
      3
    ],
    "trial_type": "survey-likert",
    "trial_index": 2,
    "time_elapsed": 50981,
    "internal_node_id": "0.0-2.0-0.0",
    "subjectId": "tycefhbu0d0olcamung6"
  },
  {
    "rt": 21862,
    "responses": {
      "appearance": 2,
      "readability": 3,
      "readability2": 4,
      "future": 2
    },
    "question_order": [
      0,
      1,
      2,
      3
    ],
    "trial_type": "survey-likert",
    "trial_index": 3,
    "time_elapsed": 72848,
    "internal_node_id": "0.0-2.0-1.0",
    "subjectId": "tycefhbu0d0olcamung6"
  },
  {
    "rt": 13313,
    "responses": {
      "appearance": 1,
      "readability": 0,
      "readability2": 2,
      "future": 0
    },
    "question_order": [
      0,
      1,
      2,
      3
    ],
    "trial_type": "survey-likert",
    "trial_index": 4,
    "time_elapsed": 86166,
    "internal_node_id": "0.0-2.0-2.0",
    "subjectId": "tycefhbu0d0olcamung6"
  },
  {
    "rt": 1451,
    "responses": "",
    "question_order": "",
    "trial_type": "html-button-response",
    "trial_index": 5,
    "time_elapsed": 87622,
    "internal_node_id": "0.0-3.0",
    "subjectId": "tycefhbu0d0olcamung6"
  },
  {
    "rt": 83405,
    "responses": "",
    "question_order": "",
    "trial_type": "instructions",
    "trial_index": 0,
    "time_elapsed": 83406,
    "internal_node_id": "0.0-0.0",
    "subjectId": "hsbm7uury8prebyom70x"
  },
  {
    "rt": 27354,
    "responses": {
      "internet": 6,
      "news": 5
    },
    "question_order": [
      0,
      1
    ],
    "trial_type": "survey-likert",
    "trial_index": 1,
    "time_elapsed": 110763,
    "internal_node_id": "0.0-1.0",
    "subjectId": "hsbm7uury8prebyom70x"
  },
  {
    "rt": 100184,
    "responses": {
      "appearance": 3,
      "readability": 4,
      "readability2": 2,
      "future": 1
    },
    "question_order": [
      0,
      1,
      2,
      3
    ],
    "trial_type": "survey-likert",
    "trial_index": 2,
    "time_elapsed": 210952,
    "internal_node_id": "0.0-2.0-0.0",
    "subjectId": "hsbm7uury8prebyom70x"
  },
  {
    "rt": 39419,
    "responses": {
      "appearance": 2,
      "readability": 3,
      "readability2": 2,
      "future": 2
    },
    "question_order": [
      0,
      1,
      2,
      3
    ],
    "trial_type": "survey-likert",
    "trial_index": 3,
    "time_elapsed": 250375,
    "internal_node_id": "0.0-2.0-1.0",
    "subjectId": "hsbm7uury8prebyom70x"
  },
  {
    "rt": 65394,
    "responses": {
      "appearance": 2,
      "readability": 3,
      "readability2": 2,
      "future": 2
    },
    "question_order": [
      0,
      1,
      2,
      3
    ],
    "trial_type": "survey-likert",
    "trial_index": 4,
    "time_elapsed": 315775,
    "internal_node_id": "0.0-2.0-2.0",
    "subjectId": "hsbm7uury8prebyom70x"
  },
  {
    "rt": 1772,
    "responses": "",
    "question_order": "",
    "trial_type": "html-button-response",
    "trial_index": 5,
    "time_elapsed": 317551,
    "internal_node_id": "0.0-3.0",
    "subjectId": "hsbm7uury8prebyom70x"
  }
]